##TITLE= SPLICCO spectrum (File: \\phypcs\vansoelen.1$\Roaming Profile\My Documents\Senior Lab\Fourier Optics\Activity 3.1\LargeGrating_6_6_Lens.jdx)
##JCAMP-DX= 4.24
##DATE= 3.3.2016
##TIME= 14:0:58
##DATA TYPE= INFRARED SPECTRUM
##OWNER= Public Domain
##RESOLUTION= 2.0
##DELTAX= 1.00000000
##XUNITS= ARBITRARY UNITS
##YUNITS= ARBITRARY UNITS
##APPLICATION= SPLICCO
$$SHOW_VERTICAL_FLIPPED= 0
$$SHOW_HORIZONTAL_FLIPPED= 0
##XFACTOR= 1.0
##YFACTOR= 0.000001
##FIRSTX= 1.000
##LASTX= 2048.000
##NPOINTS= 2048
##FIRSTY= 0.034577
##XYDATA= (X++(Y..Y))
1.000  34576 30228 33447 30548 30991 29861 31937 34714
9.000  33768 31372 31433 31937 30304 32684 31235 33569
17.000  31815 33188 33890 34210 33569 30670 34714 34393
25.000  34393 32883 34714 35660 32440 35080 34515 31815
33.000  32684 32120 33707 30304 31876 34454 35217 33066
41.000  33630 32761 33188 33829 32562 33188 33066 32623
49.000  30304 32501 32822 32623 34134 31815 31616 33325
57.000  35141 34073 32501 32623 33066 35141 33508 31311
65.000  31998 33386 34836 34012 33707 32822 33768 31998
73.000  32501 34073 33005 33890 32822 30807 32944 34576
81.000  31555 33188 35400 35019 33508 32501 32623 36530
89.000  32318 35584 32181 31754 32883 35782 32501 36163
97.000  33127 34012 32822 35141 33325 31876 32318 34210
105.000  34958 31876 32822 34073 34012 35019 33630 33890
113.000  34454 34210 34775 33386 33951 32562 35461 34836
121.000  34515 34073 35461 32440 34332 35660 34836 31052
129.000  33951 32883 34897 33707 35721 36285 34012 33768
137.000  34897 33127 33829 34714 35217 33951 34134 34515
145.000  34073 34958 34454 33707 34714 34393 33127 33569
153.000  34332 34637 35141 35965 32761 32440 32562 35217
161.000  34714 36087 33386 33005 34271 35019 34332 34958
169.000  34073 34958 34393 33127 34576 34897 35584 35782
177.000  32120 35400 36026 33829 33951 36163 34332 35584
185.000  33768 36530 34714 35400 32501 34210 35584 36087
193.000  34515 35584 33890 33951 34012 32684 35965 34073
201.000  34134 34393 33951 34134 36224 34775 35843 35782
209.000  34958 33569 33890 34637 32944 35782 35461 31433
217.000  34576 35904 34897 35782 37033 34515 36728 36346
225.000  32883 36346 33569 33005 35400 33707 34576 36346
233.000  35339 34836 34714 35782 35660 36728 37354 34454
241.000  35461 34332 36728 34210 35278 35217 36972 34332
249.000  31876 35278 35278 34897 35721 34332 34393 34775
257.000  34897 35339 38178 35904 36224 35523 35141 35965
265.000  34897 35584 34134 35019 33707 33707 36163 34714
273.000  34897 34897 35400 35721 36026 35965 35782 35782
281.000  36591 35278 35843 32822 34332 36163 33890 35965
289.000  34454 35217 37735 35660 37979 33707 33569 35843
297.000  34714 34271 37232 37918 38361 35461 35721 36224
305.000  36163 36224 35339 35080 37537 36346 37094 35965
313.000  36972 35965 37857 35660 36972 35904 35080 37674
321.000  34576 34515 37354 37293 34515 34393 37354 34958
329.000  35278 36469 37476 33005 36469 36591 34012 35400
337.000  38300 37170 34637 34271 38300 36408 36789 35141
345.000  36850 37232 36591 40314 34515 34637 36972 36667
353.000  38483 34210 34836 35339 35523 36789 35080 36408
361.000  36285 36087 35965 36667 36346 35019 33569 39688
369.000  36469 36087 34897 36667 35461 35584 37796 35019
377.000  36408 36087 35523 38178 39993 36911 37918 38986
385.000  36972 39749 39429 35721 38178 36224 37033 37537
393.000  37170 36224 37170 39490 37415 42389 37674 38239
401.000  40436 38483 38544 39185 38864 37033 38986 37415
409.000  40497 37170 38040 39627 36728 39749 37537 37415
417.000  39429 34897 39047 38864 37415 38361 37674 38483
425.000  38361 38803 39749 37094 38803 39429 42587 39368
433.000  36530 37979 39368 39047 38422 39124 37293 37735
441.000  38681 38803 37979 36163 39047 36789 37796 40192
449.000  35523 37094 37796 38483 36285 37735 38986 39124
457.000  37918 38422 37033 42389 39185 39810 41443 39124
465.000  40070 41519 42954 39124 44159 39871 40817 39688
473.000  43976 41763 41947 46173 40695 40756 40436 39749
481.000  41886 40573 37857 42526 44541 41321 43152 42893
489.000  47501 44098 46173 38864 45044 46051 38742 47562
497.000  40314 40253 41000 40878 42084 42328 46295 40634
505.000  48126 49393 44220 48310 46799 46295 43717 48249
513.000  43717 44403 41382 44480 42526 42023 45609 42648
521.000  46234 44541 48004 46738 46112 42893 42587 43152
529.000  45548 42145 51346 45929 39871 44602 42771 46936
537.000  42893 48004 47302 46433 46860 44846 43976 49698
545.000  43900 44342 47440 44281 43976 42893 45044 41138
553.000  43656 43030 43335 44159 45792 45288 46112 48126
561.000  48950 44480 45227 47562 42954 41763 45609 43396
569.000  44846 40253 43152 44480 46234 42023 45349 45990
577.000  43213 45426 46555 44403 43839 44846 40634 48752
585.000  44724 41947 44846 41641 45426 50766 43778 50202
593.000  46173 45609 45990 41763 42328 41138 41519 38681
601.000  41260 41000 38864 44342 39932 40573 42328 39246
609.000  40573 40192 39047 39246 41199 40314 39932 40436
617.000  41138 43533 41138 38178 42450 40497 39871 42206
625.000  41763 39627 39368 40634 42648 40497 38483 38986
633.000  42084 39932 36850 39185 39749 38803 36408 38544
641.000  41321 40314 39749 38422 38422 36667 40436 38361
649.000  37476 37918 36408 37979 36850 36530 38681 41824
657.000  38117 39749 37293 37735 36850 38803 40756 39490
665.000  41443 39246 37476 37170 39688 37613 38620 37674
673.000  37735 39490 40573 39124 39627 36728 38864 38117
681.000  36728 36285 39749 37094 41077 37979 39429 36850
689.000  39688 35782 41321 39490 36530 37033 36850 34012
697.000  38483 39368 36469 37170 36972 38864 40131 39307
705.000  37354 38681 37918 38422 39246 39566 36163 37476
713.000  37918 36469 37674 37857 36530 36728 38986 37094
721.000  39688 36850 37918 37033 39246 41199 37232 36087
729.000  41000 39047 38117 37918 37674 35965 37094 40253
737.000  39566 37918 38864 37537 37415 37232 35584 36728
745.000  39810 37918 37918 36911 36469 35904 39246 35782
753.000  36285 37857 39490 37476 38040 37918 37613 36408
761.000  37415 39185 37979 37979 37979 37354 39627 34958
769.000  36911 38483 37918 36026 38040 38178 38422 38864
777.000  38422 38925 36667 37537 37354 36346 35019 38925
785.000  37537 36591 37796 37476 38620 35584 37476 37094
793.000  34012 35782 37293 36789 36087 38361 37857 37857
801.000  35965 37094 36026 38040 37476 37857 39490 38300
809.000  35843 36530 35080 38300 37735 35782 36163 35965
817.000  37094 38178 37170 36530 36408 36667 36285 38422
825.000  37354 34958 38483 37674 37094 39124 36346 38239
833.000  36911 37674 36285 34637 35080 35141 36728 36667
841.000  35904 38544 37354 36346 36972 36224 37537 37415
849.000  37170 37415 38986 38422 35400 37476 35965 37735
857.000  35965 36224 36163 37979 38544 36789 36469 36285
865.000  35843 39047 37354 37476 36224 36667 34210 37918
873.000  37094 34134 36591 36850 36591 36972 36469 36530
881.000  37613 35660 36224 35339 36163 38300 36850 34332
889.000  36026 36285 38864 38178 37674 35141 36789 33188
897.000  34836 39047 36667 36728 35782 36789 37293 37857
905.000  35019 36408 37354 37613 36224 34897 37537 35782
913.000  38422 37094 34515 36087 37613 35461 35782 37476
921.000  34012 36346 34897 37170 38239 37170 36224 33508
929.000  35904 37537 38300 38361 37735 37674 36408 36346
937.000  33951 35217 37415 36972 36591 36087 35019 38117
945.000  36408 34393 36728 34576 37796 37293 35141 36728
953.000  37354 37857 35843 36850 35019 37537 37415 37735
961.000  37918 38239 36972 35782 36285 37170 38239 37796
969.000  35278 38803 37170 38117 35965 36972 38544 36408
977.000  36087 36285 35141 34897 36408 35904 36911 37857
985.000  38117 38239 36408 37857 38178 36530 34454 37476
993.000  36163 36972 34454 36911 38178 33707 37796 36224
1001.000  35843 36530 36087 35965 35080 35584 35339 35141
1009.000  36667 36789 35721 33630 35721 36346 36972 35660
1017.000  37293 37170 36728 32761 35278 35141 36850 38681
1025.000  36911 37476 34393 34775 33630 34637 34073 36591
1033.000  34134 36224 36667 36285 37537 36408 36667 35904
1041.000  37857 35141 36850 37033 36346 37979 36789 35141
1049.000  36850 35721 34576 34958 36911 36224 35523 36591
1057.000  35782 35400 37033 35461 35721 34271 36530 36087
1065.000  34073 35080 36591 35904 38422 34775 37293 35660
1073.000  38803 36591 35217 33386 33829 35523 33951 35461
1081.000  35080 36408 36087 34073 36026 34454 33890 34012
1089.000  37354 37979 35019 36789 36667 35141 36728 35523
1097.000  34012 34515 35400 35904 34958 36087 35217 36591
1105.000  36728 35278 36728 34897 34897 35278 35400 34958
1113.000  35080 35019 36163 33447 37476 35217 37094 35339
1121.000  36667 36972 34897 33630 33707 35904 34515 36346
1129.000  36972 35904 36911 37094 36530 34836 34637 36163
1137.000  35080 36469 35904 35904 36530 36530 36911 34836
1145.000  35965 34271 34515 34271 36469 37354 35523 35461
1153.000  36850 36346 36285 34454 36346 31754 35843 35843
1161.000  33005 34271 35339 36087 35721 35904 37033 35461
1169.000  34775 37857 36728 37796 36346 35782 34958 34454
1177.000  33508 36591 36163 34134 36789 37354 36728 36530
1185.000  36469 36850 35721 36911 36087 36591 37354 35843
1193.000  36728 36163 38422 34714 35904 35080 36911 35461
1201.000  39932 39932 38864 36530 36346 40497 39185 38361
1209.000  36591 37170 41641 44037 40192 44480 39810 41947
1217.000  51087 65461 68482 72251 62623 58014 165072 116670
1225.000  87632 92301 144655 345769 601190 334294 877210 980727
1233.000  673701 542214 716609 342046 174196 128145 128969 160723
1241.000  62424 56443 54047 62867 76478 54810 50583 49698
1249.000  47119 49454 54169 40634 41947 42206 38422 43152
1257.000  41443 34332 37033 36224 35660 40573 36591 34958
1265.000  39429 34515 36408 38361 36530 37293 37170 35843
1273.000  36026 36408 33829 34515 35843 35584 36972 35523
1281.000  34271 34271 35843 34637 35660 34454 35461 34012
1289.000  35523 33630 34836 36026 32120 32944 35400 35217
1297.000  34271 35965 34393 33386 34637 35660 34271 33569
1305.000  34271 35660 36667 33447 37094 33829 35339 35904
1313.000  34897 34836 35339 33325 34836 36285 34775 32822
1321.000  33951 33386 35217 33951 34332 33951 35141 34515
1329.000  33508 32684 35523 32684 36087 32181 35141 34210
1337.000  33066 32562 33005 31876 34897 33127 34134 34454
1345.000  33066 35584 32944 35080 32318 34836 34332 31174
1353.000  34012 34134 33707 34637 33569 34210 31754 32257
1361.000  33630 34271 34775 34271 34012 33386 33386 33386
1369.000  33386 34836 33951 35965 32883 35019 33127 33447
1377.000  34454 34073 33325 35019 32501 31754 31876 33264
1385.000  33890 32181 34454 34393 32684 32379 32883 34271
1393.000  33264 34897 32120 30930 35217 34775 32120 31174
1401.000  35080 35339 32623 34775 33447 32257 31494 32501
1409.000  33890 32059 33951 33066 33707 33127 33447 33264
1417.000  34897 34073 34637 33264 34134 33951 33508 32059
1425.000  32623 31998 32883 33569 31677 32623 31494 33005
1433.000  34958 31433 32120 33447 33951 33066 32257 31998
1441.000  35019 33066 32059 31815 32562 33264 32440 33127
1449.000  32684 34393 33447 31937 32318 32684 33386 30731
1457.000  32761 33768 32257 33569 34134 31174 32318 31677
1465.000  34134 34454 31494 33707 33890 32440 33707 30869
1473.000  31937 33066 34073 31555 32257 32440 30731 32379
1481.000  34073 30869 32944 33386 32120 31174 32379 34775
1489.000  32257 31433 32562 33951 33066 33829 31754 30670
1497.000  31433 31052 31113 33386 30869 30991 30991 32822
1505.000  31815 32440 32440 32318 32761 34210 32059 33768
1513.000  31174 32761 32761 30548 33447 33569 31494 31372
1521.000  31815 31311 31677 30807 31494 32944 31876 29724
1529.000  30731 30731 32120 34012 31555 31998 33707 30731
1537.000  32684 32501 31494 31616 30869 31174 30807 31113
1545.000  30731 30670 30548 29480 32440 31876 29541 32059
1553.000  31052 29159 33569 29602 30426 30670 30731 32379
1561.000  31754 32318 33127 32257 33508 31311 31754 30869
1569.000  30731 32318 29861 32059 30487 32623 31113 31937
1577.000  30426 29159 29663 31433 31433 29922 29282 30991
1585.000  30991 31174 31311 29037 32257 30869 31433 32181
1593.000  28595 31052 30869 32318 32318 29541 31616 30167
1601.000  27206 33005 29800 29098 31433 31815 30609 29922
1609.000  31235 31235 30487 30731 30045 31876 30304 33630
1617.000  30991 33447 31876 28778 31433 30167 30991 31235
1625.000  30670 30106 30991 28351 29480 29282 31937 30106
1633.000  33829 29159 27847 30365 31494 31311 28854 29922
1641.000  29221 30991 31174 28976 32623 30609 31937 30426
1649.000  29983 30548 28854 31998 31494 29800 30869 31372
1657.000  28656 29724 30670 29358 28091 31113 29098 29480
1665.000  28976 30228 30426 28274 30869 29480 30548 28717
1673.000  29098 29098 32562 31052 27466 29098 30426 30807
1681.000  29800 31174 30548 29419 27710 27969 29221 29861
1689.000  27145 29724 27908 28473 30869 29983 28473 27847
1697.000  29983 29861 29098 29983 30609 27771 29602 28351
1705.000  28152 28717 27267 29983 28274 30045 28778 29480
1713.000  28717 30731 29602 29724 28351 30548 28854 28976
1721.000  32318 30365 30045 29922 27710 29419 31372 29358
1729.000  29037 29098 30548 28656 26642 29098 29922 27771
1737.000  28473 28915 28274 29037 27405 28473 29480 27847
1745.000  29221 29861 30365 30167 29663 27145 27328 29358
1753.000  31555 28030 31555 26825 27908 29159 27466 29541
1761.000  27145 28351 28534 28152 27527 29221 29541 30487
1769.000  29221 29282 28030 29098 28976 28213 27908 28473
1777.000  29221 30548 27710 30426 27771 28915 27405 29419
1785.000  29541 29602 27771 29541 27771 28854 28534 30487
1793.000  29037 28351 27649 28274 27405 29358 28778 30487
1801.000  26459 26962 28778 27771 28976 28030 29480 28412
1809.000  28854 27908 28030 28595 27649 28213 27084 27847
1817.000  28656 26199 28915 26260 28091 28778 28412 27588
1825.000  26901 27023 28412 26703 28091 25314 26642 29419
1833.000  27023 26642 29221 26199 26016 28656 26642 26901
1841.000  27847 27771 25314 29098 28030 25818 27145 27847
1849.000  25955 28213 27405 26825 27588 26581 26703 28030
1857.000  25635 28656 27206 26581 26520 25574 28213 27969
1865.000  28534 28030 27084 27908 28778 25757 27847 24750
1873.000  27466 26398 26764 27527 25009 27908 24948 25452
1881.000  25314 26321 25696 27405 26321 28213 26642 28152
1889.000  27023 27466 28213 26321 26138 25696 27206 26398
1897.000  26703 26642 27206 24948 27328 26398 28213 26321
1905.000  26321 26016 25070 27023 26138 26581 27267 27023
1913.000  25253 26764 25955 27588 26581 26901 27328 26962
1921.000  26642 27405 26321 25574 23682 25452 29221 25635
1929.000  27588 24689 24750 25009 25070 25635 25253 25253
1937.000  26459 26825 26642 26138 25894 26581 25894 26199
1945.000  27405 27145 24628 25513 24689 26703 25818 26077
1953.000  26398 25894 26581 26077 28030 24750 25253 24505
1961.000  26642 26199 28473 26764 26642 26321 24063 26825
1969.000  24948 26703 25192 24444 25894 26764 23804 24505
1977.000  27328 24750 25574 26016 24444 27908 25894 25757
1985.000  23941 25375 25253 25513 25757 25757 25452 25955
1993.000  24872 23682 24628 24063 25009 24368 23498 25253
2001.000  25375 23422 24185 25131 24689 25314 24063 26459
2009.000  23620 24872 26703 25253 24444 23941 22491 24628
2017.000  23559 23117 25192 25070 24872 26077 22552 24246
2025.000  25009 24002 24444 25131 24505 24567 24002 23239
2033.000  24505 25253 25574 24505 25757 23941 24002 25131
2041.000  25757 24750 25375 26321 25635 24872 24750 25375
##END=
