##TITLE= SPLICCO spectrum (File: \\phypcs\vansoelen.1$\Roaming Profile\My Documents\Senior Lab\Fourier Optics\Activity 3.1\MediumGrating_6_6_Lens.jdx)
##JCAMP-DX= 4.24
##DATE= 3.3.2016
##TIME= 14:8:7
##DATA TYPE= INFRARED SPECTRUM
##OWNER= Public Domain
##RESOLUTION= 2.0
##DELTAX= 1.00000000
##XUNITS= ARBITRARY UNITS
##YUNITS= ARBITRARY UNITS
##APPLICATION= SPLICCO
$$SHOW_VERTICAL_FLIPPED= 0
$$SHOW_HORIZONTAL_FLIPPED= 0
##XFACTOR= 1.0
##YFACTOR= 0.000001
##FIRSTX= 1.000
##LASTX= 2048.000
##NPOINTS= 2048
##FIRSTY= 0.034378
##XYDATA= (X++(Y..Y))
1.000  34378 34119 34256 36392 35202 36652 34317 35065
9.000  33997 35767 35949 33676 34499 31661 33111 34943
17.000  35004 35507 35949 36011 34943 35262 34439 34821
25.000  33111 34821 36453 35385 34760 36896 35706 35949
33.000  34317 35507 34881 33051 36148 35507 33997 35004
41.000  34881 34317 38467 32928 35949 36148 36514 34881
49.000  33812 36514 36330 35629 34119 36209 32990 37017
57.000  35629 33874 35567 33051 36392 37017 35446 34821
65.000  33936 35507 33554 35126 36453 36514 35202 35949
73.000  36453 35004 35126 35567 34194 36011 36652 37903
81.000  34256 34760 36072 35065 35567 38100 34881 38345
89.000  33173 35567 35889 36453 36835 34622 36896 35767
97.000  36774 33997 35446 34821 38345 36270 35385 34256
105.000  35446 36072 35446 33554 34622 36774 35507 36453
113.000  36652 35949 37521 35706 35828 37582 35126 35004
121.000  36652 35507 36392 35949 35446 33615 35126 36896
129.000  37460 37337 36712 37017 33752 36652 38529 37155
137.000  36774 36652 37659 37720 33874 37079 35629 36270
145.000  36896 35262 37521 38971 36392 34439 36072 36774
153.000  35767 36209 35949 37521 35629 36148 34317 36011
161.000  35767 37659 34561 36453 36209 35567 37277 34943
169.000  35065 37277 36712 36575 36835 35324 35706 36575
177.000  37277 36330 34881 37079 38223 35126 37337 35446
185.000  37460 37337 38727 35949 39108 37216 36072 35004
193.000  36453 36209 36712 37460 35324 36330 36453 36957
201.000  36835 37155 35262 37460 35004 36957 38467 35567
209.000  37155 35629 37277 36270 37155 35949 36957 37399
217.000  38345 36957 37460 37582 35706 38849 35828 37017
225.000  38787 37903 35324 35828 39108 36392 34699 38405
233.000  35567 37216 37460 38727 38223 33752 35385 39474
241.000  38345 36712 36270 35004 34881 36270 35324 36896
249.000  37155 36209 36712 36072 36575 37842 36774 39168
257.000  36330 35446 38223 35446 37337 38162 37964 36330
265.000  39230 38024 35262 38100 37842 37277 37017 37460
273.000  39353 38100 37277 38727 37337 36835 35889 37720
281.000  37079 36575 37216 39673 35767 38162 37017 37277
289.000  38223 36712 38284 39734 39168 35889 36209 38100
297.000  36575 36712 39535 36712 36453 35567 38162 37964
305.000  38787 40923 36011 36575 38666 38024 37964 39612
313.000  37720 36835 37720 38529 37659 37399 38100 38910
321.000  39855 40054 35828 37582 37720 36330 36453 36835
329.000  38100 36575 39855 37216 38849 37903 38787 37659
337.000  38223 39855 38345 37720 37659 39230 37780 36774
345.000  38529 36957 37460 36957 38024 38787 42008 39353
353.000  38727 40482 38529 37399 37399 36270 38467 37582
361.000  40741 38727 38405 41062 39108 41565 41428 41123
369.000  40863 41305 39795 43579 38162 42511 44464 41870
377.000  45029 48554 44647 42938 55236 44768 49378 46845
385.000  46478 61783 57250 50751 48492 47867 50506 52841
393.000  50887 48736 54855 51834 47165 49439 52337 56366
401.000  56930 53024 48111 57816 52780 56548 50247 52582
409.000  58503 51514 49117 49179 50948 58564 52277 49622
417.000  49117 49439 48233 54978 52704 46784 46341 47867
425.000  51697 45273 43320 41428 46723 47286 47928 43823
433.000  43442 41245 40802 43640 41367 42511 41367 41686
441.000  41428 42816 40299 39917 44647 39612 43198 40985
449.000  39612 44327 39855 40421 43015 42633 40177 42693
457.000  41809 43640 44768 40802 43640 44892 43579 39168
465.000  45090 43961 45395 43075 41428 47547 44327 50948
473.000  53849 47486 53849 50446 52903 60273 55985 63796
481.000  55420 53284 55923 51254 60395 61402 51514 57816
489.000  50751 60654 53528 67200 55420 56243 51010 54154
497.000  62104 51392 52277 56046 52017 64621 68589 61097
505.000  54412 58136 69855 73563 72815 54978 51254 56991
513.000  51453 53971 53345 57053 52201 47042 51453 52460
521.000  52460 56686 54032 56991 51010 60897 53910 50185
529.000  61843 48935 48371 61904 51697 53405 51955 52841
537.000  62042 57755 45716 51010 50690 59142 53467 51635
545.000  54154 46981 50948 50064 52140 50506 45273 45914
553.000  44830 49561 46601 43015 43823 49683 47226 42435
561.000  44083 42693 52582 49622 44708 43579 44586 46723
569.000  43640 43884 40680 48874 46845 44464 40985 42511
577.000  43701 47348 42252 42313 42191 43518 44327 40618
585.000  42633 45334 43198 43640 41184 40177 40618 42313
593.000  44205 42693 43518 40177 44022 42252 40985 42693
601.000  39673 42816 37780 39474 41748 41930 39108 41062
609.000  40680 41184 39917 40680 40421 40360 41367 41305
617.000  39673 42633 40923 41489 40741 40802 41245 38467
625.000  39168 42693 39978 41565 39795 41062 41748 41367
633.000  40482 39353 40618 41123 38467 40618 41809 40923
641.000  38727 38605 41062 37964 39917 40115 39917 38605
649.000  38787 40299 39230 40802 39230 40177 40923 39734
657.000  39535 39917 37964 40985 40741 41489 37521 40680
665.000  39917 39230 37216 38284 40863 41686 38787 39032
673.000  41686 38910 39612 39673 38284 39673 38727 39168
681.000  40482 38405 40054 38024 40558 39474 41428 39474
689.000  39353 39855 40558 38666 40421 40054 38405 40802
697.000  39168 37460 38849 38100 41062 39917 39734 40299
705.000  39353 38223 39474 37720 38727 39032 40558 40482
713.000  39535 38467 40421 40482 39612 40360 41062 38666
721.000  38345 39230 38971 41930 39795 39673 39291 37842
729.000  41625 39855 39353 38787 42252 39978 37964 40923
737.000  40618 38910 39978 40115 39917 39108 36957 39535
745.000  38223 42633 39108 36575 38405 38100 37017 38405
753.000  39230 40237 40680 40741 41428 41565 38100 35949
761.000  39978 37964 40360 36270 38727 38405 39917 40421
769.000  39734 37659 40923 40360 39353 37079 38727 38405
777.000  39230 38100 37155 39474 40115 40618 35385 40863
785.000  40482 39535 37720 39474 38100 40115 38162 41625
793.000  37277 37964 40482 37521 39612 39291 37720 40299
801.000  40482 36896 37964 40360 41930 39795 39353 36575
809.000  38666 39612 37460 39032 36652 41489 39855 39917
817.000  40741 40115 38787 38467 39474 38787 40863 40558
825.000  40177 39795 41748 39168 39032 41625 38162 38787
833.000  39032 38666 38727 39474 38849 37460 38849 36835
841.000  38345 38223 38345 41062 39353 38971 38284 39230
849.000  38971 38727 41245 37659 39474 40618 38787 36652
857.000  37964 40237 38284 37903 38605 40741 41245 37903
865.000  38910 37460 40985 38100 39535 39291 39414 38910
873.000  39855 40618 38787 39917 37155 37842 41428 37582
881.000  39108 40299 38100 39673 36072 37155 37277 39108
889.000  38787 40237 37399 39855 37720 39108 39612 39108
897.000  38727 40618 38284 37399 37582 40115 38024 40360
905.000  39795 39230 38467 38529 41062 38787 37155 38467
913.000  40863 38100 37521 38284 38467 38467 39535 39353
921.000  35949 39795 36835 38223 36835 39734 38284 39795
929.000  39917 39353 38100 38910 35767 39535 37903 38727
937.000  37460 36209 38100 37659 38467 38405 37460 39032
945.000  39535 38529 41245 38971 39612 39673 39353 36835
953.000  38467 37079 39612 39291 38467 38529 37521 36774
961.000  38467 37659 40054 40054 37460 37780 35629 38284
969.000  37842 37903 38910 37216 37964 37399 37582 37337
977.000  36330 37903 39673 39168 37521 37521 35828 36712
985.000  38666 39353 39673 38467 39032 39535 35767 38024
993.000  38100 37964 37155 39353 39535 38910 37582 39353
1001.000  37659 37399 40054 39108 38024 38162 36072 37337
1009.000  36835 37277 36270 37720 38100 36514 38100 37659
1017.000  38971 37780 37842 39474 39230 36774 37964 38605
1025.000  38910 37720 39535 36453 37780 36330 37337 39291
1033.000  41062 39612 37399 35324 36148 37277 39978 37903
1041.000  39612 37216 37659 38529 38024 36330 37460 38345
1049.000  36957 37780 37582 37780 37155 36957 38345 38100
1057.000  38024 38849 37964 37017 36072 37720 37659 37964
1065.000  35202 37842 36453 37720 35706 38971 38223 36774
1073.000  37460 38787 37964 38666 38223 36575 37842 38100
1081.000  38467 36896 38467 40177 40421 39535 35126 37216
1089.000  38405 40360 39353 37337 39032 38467 37659 36957
1097.000  38162 39108 36209 37017 38787 35202 36835 35767
1105.000  38345 38971 37659 37337 37337 37155 36652 38223
1113.000  37216 37216 38727 38849 36957 39978 39795 36835
1121.000  36712 37964 38024 35126 37017 35949 37903 36712
1129.000  37964 35446 39414 38605 36575 36270 36896 38405
1137.000  38666 37964 39291 39353 36453 38605 38605 37903
1145.000  36514 37017 38849 38223 38529 38100 37842 35949
1153.000  33493 37017 38405 38024 36774 38345 37337 37720
1161.000  38605 36148 38223 38223 38024 38666 36270 37659
1169.000  37079 39230 37337 37720 36575 37659 37277 37155
1177.000  40741 36392 34058 40558 39032 36209 38605 39917
1185.000  36774 35567 39474 35629 38605 38971 40863 39414
1193.000  37521 39855 39734 39230 36453 39032 40482 41062
1201.000  46417 40923 40741 38910 36270 40177 36712 41489
1209.000  50751 51773 46540 46097 44892 41489 45395 40863
1217.000  42693 45838 53849 75074 70603 71671 67399 61904
1225.000  61599 68146 63736 73440 68268 116411 530418 300190
1233.000  296223 332768 278263 777767 922743 630655 726619 475913
1241.000  437353 685282 340962 386633 265673 177461 126175 96498
1249.000  57190 50185 43518 60090 66315 61661 65064 59448
1257.000  55985 46784 43640 42130 42191 40863 46097 47104
1265.000  41930 44647 42755 42191 37842 38223 39230 39673
1273.000  38467 40360 41870 37216 40299 38467 36774 37277
1281.000  37903 35385 37277 36652 38162 39612 35385 36270
1289.000  40054 34119 36148 36330 36835 36514 34760 36148
1297.000  38162 38024 35949 37521 37903 37460 37155 37659
1305.000  35065 36330 36835 36270 38223 38024 36835 37903
1313.000  34058 36209 35629 36575 36774 36148 34699 35767
1321.000  36957 36453 36896 35262 37017 35706 37460 33371
1329.000  36330 36835 32867 35385 34881 34699 35828 36148
1337.000  35889 34058 33051 36330 36148 36774 37460 35507
1345.000  35202 33371 35065 36712 35767 37017 36270 35567
1353.000  36270 33554 35202 34317 32547 35324 35629 35126
1361.000  35262 35202 34378 34499 35324 36514 35889 36514
1369.000  35567 35262 36514 35004 35949 35324 34194 34119
1377.000  34881 37216 33051 33051 34699 34760 33752 34760
1385.000  33752 33936 35385 33997 37216 34256 34317 37155
1393.000  36270 36011 34821 34378 33554 34622 35767 36209
1401.000  34699 32363 32607 36072 35828 35507 32744 35889
1409.000  35629 35385 36835 34561 36270 35889 33173 33752
1417.000  35126 38100 36835 33249 34821 34821 34194 36896
1425.000  33676 33249 36330 32668 34699 33676 34256 33493
1433.000  33812 34378 33997 33493 34439 35202 32806 34561
1441.000  32990 34194 33615 34622 33874 34622 33249 34119
1449.000  35202 34821 36072 33874 33493 35202 35202 35446
1457.000  32928 34378 34378 35629 33173 34317 31418 35828
1465.000  35507 36270 32486 35126 33615 34317 33615 34821
1473.000  34256 31920 36652 34194 34378 35767 34119 34058
1481.000  34561 33249 32928 33936 33111 33752 32668 33676
1489.000  35202 33936 32744 34378 32867 32486 34499 33554
1497.000  35385 33173 33249 35065 32547 34119 34378 32547
1505.000  34622 32744 33493 32486 32990 34439 33812 34317
1513.000  35126 32486 32424 31661 34943 36957 35324 31295
1521.000  33371 31295 31097 33371 32166 32547 33051 34058
1529.000  34561 36392 34439 32867 31661 33812 32668 34194
1537.000  32867 33371 31661 32547 33493 32424 34699 31219
1545.000  33874 35065 32104 30975 32104 33554 33249 32547
1553.000  32867 31723 32990 32166 33432 31981 33051 31418
1561.000  33812 32547 31356 31661 34317 33493 33051 32607
1569.000  32166 31661 33371 33615 31981 33371 32424 33997
1577.000  30716 33310 32166 30410 31418 33310 30532 33874
1585.000  31661 32607 31356 32486 34194 31295 33249 33493
1593.000  32547 33371 32867 31295 31799 32928 32867 30716
1601.000  29907 31860 32806 32744 30975 31295 32042 32166
1609.000  30975 32744 31981 33615 31799 31295 32607 33812
1617.000  32990 30716 32242 31540 33752 31600 32806 30289
1625.000  31479 32867 31219 33432 31920 32042 31920 30212
1633.000  32104 29907 31219 30289 29907 32242 31097 32424
1641.000  31723 30853 33371 31981 31097 32928 30289 32166
1649.000  31035 31661 31661 30090 32303 30853 31219 29709
1657.000  33615 31158 29205 28900 30716 27816 32424 31799
1665.000  30655 32042 30212 31295 31479 31661 30792 31799
1673.000  32806 30792 30472 31600 30289 32242 29647 31723
1681.000  29967 29709 31158 30594 31723 30212 30913 31981
1689.000  31295 29464 30472 29907 31158 31661 28336 31035
1697.000  32547 31799 31723 31600 30289 28579 29907 30655
1705.000  30532 30853 32363 31035 30655 30655 31540 31723
1713.000  32303 32928 31035 31600 30090 30594 30716 31158
1721.000  32363 29526 28839 30655 31799 29709 31219 30029
1729.000  29022 32806 30532 30716 29709 30350 29967 32424
1737.000  31097 30853 30655 30289 32042 30975 29404 29144
1745.000  30472 31219 30410 29082 28702 29342 30150 32806
1753.000  29526 30716 29205 31356 29647 30594 32668 30212
1761.000  28641 28397 30853 29845 29845 29205 30029 29205
1769.000  29907 29845 32363 30792 30029 30792 31035 29342
1777.000  30029 29082 28702 30532 29647 27252 30350 29464
1785.000  30289 27389 29647 29526 30410 27892 28900 30655
1793.000  29404 30029 30090 27450 31158 28641 29464 29526
1801.000  28519 28702 29845 27573 30350 29907 29845 29464
1809.000  29266 29404 28519 29769 27573 29709 28197 27694
1817.000  28336 29647 28397 29587 28839 28900 29464 29082
1825.000  29769 29144 28259 28641 28839 29526 28763 28137
1833.000  28336 26626 27892 27816 28197 28763 28641 27389
1841.000  28259 30090 27954 28397 27694 27573 28519 26565
1849.000  27816 28336 27389 28137 28579 30289 28702 28960
1857.000  27252 28397 28076 27892 26749 29022 29144 29845
1865.000  29266 25803 29205 27694 27252 27954 28641 29342
1873.000  25497 28137 29769 27450 26382 26442 26947 31295
1881.000  27512 28076 29022 28336 25557 27191 27756 26244
1889.000  29769 26749 28259 27129 27313 27389 27756 27573
1897.000  28397 28839 27573 26062 27512 26184 26886 26184
1905.000  26947 28259 26947 25803 24673 27892 28015 27954
1913.000  27816 26810 28397 27954 25619 26382 30150 26749
1921.000  26123 27512 28076 27069 26886 25803 27450 27007
1929.000  28336 27450 25054 27573 25863 25679 28336 29144
1937.000  27512 27694 26504 26123 28137 26688 27573 26244
1945.000  26565 27313 26504 26810 24856 26382 26947 26688
1953.000  28641 27069 27313 28015 28015 26244 27634 27313
1961.000  25741 26810 25238 26810 27252 27007 25054 26244
1969.000  27389 25436 27450 26244 26810 25741 26184 26062
1977.000  22720 26442 26244 24612 24994 25497 25238 25557
1985.000  24933 25863 24489 26688 28137 25359 25679 25436
1993.000  26947 23986 27892 26442 25238 27129 25863 25116
2001.000  26123 24489 26244 27129 25939 25238 25359 26442
2009.000  25863 25436 25939 24048 26749 25238 24048 27252
2017.000  24429 26306 26382 25116 26382 25176 24794 26626
2025.000  24734 27892 25238 24734 24170 26123 24109 24994
2033.000  26504 27252 26001 25176 25299 25497 23163 25863
2041.000  24109 23909 22903 25299 27313 25176 25619 23604
##END=
