##TITLE= SPLICCO spectrum (File: \\phypcs\vansoelen.1$\Roaming Profile\My Documents\Senior Lab\Fourier Optics\Activity 3.1\SmallGrating_6_6_Lens.jdx)
##JCAMP-DX= 4.24
##DATE= 3.3.2016
##TIME= 14:13:36
##DATA TYPE= INFRARED SPECTRUM
##OWNER= Public Domain
##RESOLUTION= 2.0
##DELTAX= 1.00000000
##XUNITS= ARBITRARY UNITS
##YUNITS= ARBITRARY UNITS
##APPLICATION= SPLICCO
$$SHOW_VERTICAL_FLIPPED= 0
$$SHOW_HORIZONTAL_FLIPPED= 0
##XFACTOR= 1.0
##YFACTOR= 0.000001
##FIRSTX= 1.000
##LASTX= 2048.000
##NPOINTS= 2048
##FIRSTY= 0.037430
##XYDATA= (X++(Y..Y))
1.000  37430 36423 36041 35172 35599 34912 34653 34225
9.000  34027 35858 34470 37247 34348 33966 34027 34531
17.000  35736 34592 37308 35172 34348 35172 35294 35858
25.000  36423 35034 35294 36606 35736 36743 34409 35858
33.000  37186 36423 36102 35599 31891 35233 37186 34973
41.000  34225 35980 36987 34088 36362 34851 34653 35034
49.000  35477 35919 35675 35675 36804 34653 35858 35736
57.000  35355 36179 35172 36682 33783 37552 36362 36926
65.000  34409 39887 36423 36102 37048 37247 34790 36041
73.000  37125 36102 35172 37048 35797 37125 35858 36041
81.000  35599 35294 35477 34790 37933 35477 38132 34851
89.000  34592 35797 38193 36926 37750 36484 35599 35233
97.000  33585 36240 35416 37689 36423 36804 36545 35980
105.000  36804 37369 38376 35538 36926 37247 37628 37247
113.000  35095 34912 35172 37491 36301 37933 38193 36041
121.000  36041 37247 35797 36423 35919 38056 36987 34851
129.000  35599 36682 36484 35919 38879 34653 34531 36743
137.000  36240 38132 36865 36987 36362 35736 36804 35919
145.000  37750 36179 39200 36926 36484 36865 36484 37308
153.000  36041 35355 38437 36682 36240 37048 37308 38635
161.000  37369 34592 38696 37247 39444 36545 34470 36484
169.000  34851 35416 38376 39581 37247 37933 37186 36743
177.000  38376 38879 36606 36804 37750 39139 35477 37628
185.000  38254 35477 37308 37872 39322 37552 35858 36041
193.000  37994 36804 39002 39261 37994 37308 36865 36240
201.000  36484 39383 39505 36240 38437 38056 39200 35919
209.000  37369 38437 37048 39002 36743 37750 36423 37247
217.000  39505 36606 36362 38498 37872 37689 37994 37628
225.000  35538 37933 40451 37872 37872 40390 37247 38437
233.000  37811 37369 38498 37430 36804 36926 35980 37628
241.000  37186 35538 38254 35797 36179 37628 37994 37628
249.000  38132 37811 39703 36606 38559 39200 37628 40772
257.000  36423 37994 36926 38437 37308 36743 38254 37689
265.000  38818 39002 37750 38696 38635 37369 39139 38315
273.000  38635 39078 38757 38315 37552 39642 38696 37430
281.000  41336 37430 39948 36804 36926 37689 39078 36041
289.000  39261 37491 39581 39642 38056 37048 37994 38193
297.000  38818 37750 38696 40207 38498 38559 38696 37308
305.000  38818 42603 36545 38757 41779 38132 37491 37247
313.000  38132 39383 39200 37247 39322 38757 39444 40207
321.000  37430 39078 38635 40146 40268 40451 37750 38757
329.000  39078 41031 39444 38376 38437 38879 38132 38315
337.000  38376 38132 39581 37628 40146 40268 37247 38818
345.000  39139 39581 39703 38254 37750 39322 38818 40146
353.000  35980 37369 37491 39581 39444 37308 40146 35980
361.000  38879 38437 39765 40268 39261 38437 38757 39703
369.000  37430 38559 38376 39002 37994 39444 39703 39383
377.000  40085 39078 39642 39383 40955 38437 39887 38818
385.000  38559 39948 38818 38818 40588 41535 37186 37933
393.000  39703 40268 41962 38559 40650 41275 40512 39444
401.000  41336 41031 40512 40512 40329 39322 41840 39139
409.000  37811 40207 41153 41153 41031 37628 37933 38437
417.000  37552 39383 41458 38254 38696 40650 38254 40451
425.000  39703 38879 39444 38498 40390 40390 38757 41596
433.000  38559 40207 39139 41962 41840 40588 40146 40085
441.000  41596 41458 40085 38498 40512 38757 40955 42099
449.000  39383 39444 42847 40711 41718 38254 39505 40650
457.000  39261 41657 41092 42160 41397 40955 39765 41153
465.000  39505 41397 40588 41214 41092 39703 39581 43228
473.000  40207 40894 38635 40711 41779 42099 42282 41214
481.000  41840 41092 39322 41092 38757 40390 42847 39948
489.000  41397 39139 40207 43106 42465 41214 42725 40268
497.000  41214 42282 40329 43610 39200 40085 42221 38879
505.000  40955 41779 42984 43488 41153 42725 44678 43228
513.000  41275 44296 42603 41458 40650 42465 40390 42908
521.000  41397 41458 44678 42404 42038 43732 43350 43350
529.000  43228 41092 39444 42160 43610 42099 43991 41962
537.000  43289 42908 41397 44937 43045 43045 44174 43045
545.000  44998 44739 42099 42343 41657 42847 45563 42725
553.000  40085 43549 41840 41535 43350 40512 39826 41596
561.000  41031 40772 43350 42542 41458 40955 43045 46814
569.000  40955 41397 43793 41596 44052 43991 42038 41458
577.000  40772 39765 43350 42984 43228 42847 41718 42282
585.000  41718 42542 40512 42725 42603 40390 43350 40085
593.000  44296 40588 43167 39200 43671 42603 43167 41214
601.000  41397 42465 42099 39826 42343 41458 38941 41275
609.000  42664 41596 43854 41535 40390 40650 43732 42160
617.000  41962 39703 42542 42725 42404 43045 42542 42786
625.000  42465 43350 41596 41275 43671 41657 42725 41901
633.000  39581 40146 40833 44113 42603 43350 42664 41962
641.000  41458 39826 41657 42404 42603 43411 40711 41092
649.000  41031 43106 41031 41840 39444 43671 41657 43106
657.000  41153 42908 39765 41214 41153 39002 41779 41275
665.000  40146 41336 39139 41031 40085 39703 42664 40009
673.000  42984 42603 41657 41962 40085 42603 39261 43732
681.000  37689 43488 41336 42725 43411 41718 38879 40772
689.000  40833 42603 41596 40268 41092 40894 41901 40894
697.000  40833 40146 41214 41092 41657 43167 41779 40268
705.000  41031 39139 40329 39948 42099 43854 40512 39139
713.000  41657 42038 40146 41031 39139 41458 40588 40833
721.000  38757 39826 40512 40009 38315 42221 42465 38498
729.000  37750 39444 39826 42404 41336 41535 41657 42465
737.000  40085 39581 42282 40451 39322 40146 41153 39642
745.000  39765 38132 41962 39887 39078 39078 41275 37491
753.000  40009 40650 43228 41153 41092 41901 39002 40512
761.000  41962 43045 37247 40268 39505 38879 40833 41153
769.000  39887 41596 39261 40451 39703 40955 40894 40711
777.000  41214 42282 40894 40512 41535 41214 42099 41840
785.000  37186 42160 39139 41397 41779 41092 40588 43045
793.000  41535 41397 39642 40711 40711 39505 39887 41962
801.000  38818 42099 38193 39261 39261 41336 40268 41214
809.000  40390 39642 40146 39261 40207 42404 41214 40711
817.000  40650 39505 39948 41092 40390 38879 39505 40268
825.000  40390 37994 39322 39887 39139 41092 42038 40772
833.000  37369 39200 40146 39139 39139 40085 40833 38941
841.000  41275 38757 40650 39581 42664 40451 39703 40146
849.000  40955 42908 40451 40512 38818 40390 41153 39505
857.000  40588 38941 41840 40085 37369 40009 37308 40207
865.000  39887 40146 40451 39139 42404 42221 41031 38315
873.000  39703 40512 41840 37811 39444 39948 39444 40894
881.000  41336 40146 40650 39826 39948 40711 40451 40009
889.000  40009 40955 39139 41153 40894 41275 40833 40146
897.000  39642 38056 43167 40390 40650 38818 39261 40588
905.000  40772 38879 41214 40329 39322 38376 40329 39322
913.000  40390 40085 40009 39826 41275 38498 40268 40146
921.000  39887 38818 40955 39887 39002 40009 38635 39505
929.000  40268 40451 40146 39261 37750 40009 39200 38757
937.000  38879 39703 40588 41840 38941 41214 39078 40146
945.000  39505 38696 39322 39505 40711 38315 41336 40085
953.000  42038 37491 40894 40146 39703 39887 40268 42908
961.000  39948 39383 39948 40009 39261 40512 39505 41214
969.000  41336 39383 40329 38879 40451 39139 36804 40009
977.000  38941 37994 40512 39703 37872 38376 41275 40955
985.000  41718 41779 42404 40512 39078 40146 37628 40650
993.000  39444 39642 40833 39581 40009 39887 40329 40451
1001.000  38757 38437 38818 39383 40146 40329 38193 40009
1009.000  40009 38056 38757 38941 38559 38696 39826 38879
1017.000  42099 36423 37369 40588 37369 38193 38818 39765
1025.000  40207 36545 41275 38818 38498 39826 39444 39948
1033.000  42603 40268 39826 42099 41535 40772 39826 38941
1041.000  37994 39948 42038 41031 38941 37872 39200 39642
1049.000  39444 39322 39322 39261 39002 37872 41153 37552
1057.000  36865 38818 39948 39200 40650 39642 37369 36987
1065.000  40009 40329 37872 39581 38193 40512 40085 39826
1073.000  39322 38376 39765 40329 40085 40588 39948 39002
1081.000  40390 37933 39383 39703 38254 39826 39200 39948
1089.000  37994 39948 37689 40085 38635 41275 38941 39948
1097.000  37689 40833 38056 41840 38132 38315 39948 38437
1105.000  40955 38498 37628 38696 39826 38315 39322 42542
1113.000  37491 38757 40650 40207 37933 40085 40650 37933
1121.000  43045 37689 40268 38193 36301 38941 40085 38818
1129.000  39581 39383 37125 39200 40207 39444 40772 39642
1137.000  37430 38941 38315 40650 39444 40009 37750 38635
1145.000  39826 38879 40146 38879 38879 36987 41901 38315
1153.000  38254 41840 40650 39948 40207 41718 41596 40833
1161.000  40451 40650 42847 38635 38818 40451 39002 39444
1169.000  40009 37048 40146 39642 46814 56076 56580 48767
1177.000  47516 46692 52613 49271 48905 47196 47013 46066
1185.000  42343 46189 43793 42847 42343 39642 47394 50034
1193.000  62760 99183 237537 350881 278614 212832 187258 167605
1201.000  148317 161486 189471 210254 297901 634149 749706 537941
1209.000  407019 307911 324101 277607 214602 118638 103212 158144
1217.000  293995 304386 169497 182223 102327 99870 66727 52231
1225.000  47257 40329 43411 42221 43915 41901 40894 40711
1233.000  41153 42984 43793 42099 43167 43228 51987 52811
1241.000  41153 37308 37628 38879 39642 39444 39765 38696
1249.000  37048 39505 39505 37628 38193 39322 39078 36301
1257.000  39444 37689 36743 36179 41092 36865 40085 38315
1265.000  37308 38757 39139 38193 39002 36484 38696 37628
1273.000  38559 38132 39002 38254 37552 38254 39261 38757
1281.000  37811 36301 39078 39444 38879 37491 36484 38193
1289.000  37491 37186 39703 40085 34973 36301 39261 38193
1297.000  37186 36423 39765 36484 38635 36865 37994 36865
1305.000  37186 37308 37872 37811 36926 40711 39322 35858
1313.000  40085 36987 38498 38879 38879 37994 39887 36041
1321.000  38879 39703 37308 38132 36743 39002 37247 34470
1329.000  39642 37491 36865 38818 37552 37933 37872 39581
1337.000  38498 37430 39200 37186 38193 33905 39642 37247
1345.000  36179 35675 36240 39078 39002 40085 36606 38132
1353.000  37933 36179 38315 37308 36865 38757 37125 36545
1361.000  39139 39703 39261 36484 37186 36423 37872 37430
1369.000  36987 35477 36484 36804 37430 37994 36102 38635
1377.000  38879 39765 36179 37308 37750 36362 37186 35477
1385.000  37811 38498 38376 35797 37872 39581 37750 34149
1393.000  38879 38254 35675 37308 36865 37491 37552 36804
1401.000  37186 36484 36743 35416 36041 37369 36606 34729
1409.000  36179 36484 38056 36545 35477 35736 35294 35858
1417.000  36545 36682 38254 36423 36682 38818 37430 37308
1425.000  38498 36987 37811 37369 37872 35858 35797 37491
1433.000  38818 38056 37628 35477 36102 37308 37125 38193
1441.000  36484 38879 35919 36545 35172 36682 36545 36926
1449.000  37186 36484 35477 33218 37048 36682 34531 35675
1457.000  36682 36926 36804 36301 36545 37369 35858 36423
1465.000  38635 37186 36240 37552 35919 34592 37125 35797
1473.000  35736 37430 34470 34653 35919 35095 37552 35599
1481.000  36743 34531 34348 34790 34973 36041 34470 37125
1489.000  35034 35858 34653 34287 36926 37186 35858 38696
1497.000  36804 36987 36682 36545 36545 34653 35172 34912
1505.000  36804 35477 36606 35858 36926 36179 35980 36301
1513.000  34851 34973 35797 35034 36606 37186 35919 35797
1521.000  37048 36102 36301 34348 36102 36240 35919 34729
1529.000  34225 34912 34531 35294 34851 34531 34912 35919
1537.000  36743 35736 36804 34470 36179 33966 35095 35095
1545.000  34912 36301 34790 35233 32837 33783 32578 35294
1553.000  35233 33722 36926 35477 35599 36179 34409 35797
1561.000  34027 33646 36240 34790 34088 36987 34088 34409
1569.000  35416 34348 34409 34592 33844 34912 33463 36179
1577.000  34088 34729 34531 35736 36743 33585 34348 32700
1585.000  35034 36179 36545 35858 33905 34409 35172 35858
1593.000  36179 36545 36743 34027 35233 36301 36240 35599
1601.000  34912 34348 34851 37125 32639 33020 35919 32135
1609.000  33340 34027 35477 33646 32074 33585 33783 34790
1617.000  35797 34653 33905 32516 33844 32837 34348 34027
1625.000  36545 33081 32959 35416 32455 32776 33218 33844
1633.000  35095 34973 33905 33279 34790 34225 33218 32959
1641.000  35294 33524 32578 34027 34225 34027 32959 34149
1649.000  34409 34531 34912 35172 34348 32196 33722 30685
1657.000  35233 32455 34912 32700 32959 35294 34088 32196
1665.000  34531 34653 34729 32837 33966 33218 35599 34027
1673.000  35095 34531 33524 34973 34348 32578 34973 33401
1681.000  34225 31830 33646 34287 34149 32700 32516 34531
1689.000  34729 32333 32455 34088 33524 34790 35172 33524
1697.000  33585 36240 31830 34653 31189 32455 32394 34912
1705.000  32455 32455 32700 32455 33081 35477 32776 34851
1713.000  32898 33401 32074 32272 31830 32272 33783 36545
1721.000  32074 35355 32455 30624 32196 32394 31570 34287
1729.000  31570 34470 35538 32196 29999 31448 32272 33340
1737.000  32272 30563 30502 32333 35095 32455 31631 34653
1745.000  33020 30685 32898 33524 31448 35034 31189 33279
1753.000  32959 30319 32196 33722 32333 32516 32196 31692
1761.000  33844 30884 32196 31128 31128 31692 33081 31067
1769.000  33463 31128 31631 33218 34027 31189 31952 31830
1777.000  33585 32074 33081 30441 31891 32837 29816 31830
1785.000  32578 31769 31448 30746 32333 31006 33340 31952
1793.000  30945 30746 31265 32074 29739 32013 32700 32272
1801.000  34225 32959 32837 31891 30823 32639 29373 33783
1809.000  31631 31631 31692 32898 32700 30945 31891 31265
1817.000  31952 30884 34149 29739 31006 31509 32837 32516
1825.000  29816 32578 30121 31769 29495 30624 31265 33020
1833.000  31509 31189 30121 31448 30884 33646 30624 30502
1841.000  32837 29617 29739 30563 31692 32700 32776 30121
1849.000  33524 31769 31006 30319 29816 30884 30884 32135
1857.000  33142 31769 30380 31387 28168 31265 29114 30884
1865.000  30945 29999 31006 30060 31387 29053 31570 30685
1873.000  30060 31509 30945 30945 30502 29053 30060 31631
1881.000  30685 31570 31128 30823 28488 30884 29739 30380
1889.000  30502 30884 27664 29236 29312 29053 29938 30685
1897.000  30823 29114 30884 30563 29175 32135 31265 30823
1905.000  29373 30685 31189 30243 28427 28732 31509 28793
1913.000  30319 30182 28229 29114 30182 31265 28290 30380
1921.000  28992 27664 29434 30182 28427 28290 28931 31067
1929.000  29877 29556 29739 29434 28793 28046 31128 30441
1937.000  30319 27786 27862 28732 29114 30243 29816 29556
1945.000  31189 27725 28931 28992 28549 29877 29617 30121
1953.000  28290 30441 30319 30121 30945 28427 30319 29877
1961.000  29877 26092 29312 30243 29114 29556 30060 29877
1969.000  27664 29556 28488 28427 28168 29236 30884 28229
1977.000  27481 28671 28107 29053 27481 28107 28488 28046
1985.000  29434 28229 26474 25467 27862 29678 29434 28229
1993.000  27786 28732 29739 29053 28992 27420 29175 29678
2001.000  29175 28671 28549 30060 28671 28168 27725 27664
2009.000  29373 28366 27725 28610 27664 29236 27664 29175
2017.000  28931 29175 29114 28870 30624 27664 28732 28046
2025.000  28427 27786 28610 29434 29877 29236 26657 29312
2033.000  28046 26276 27283 27985 28931 27038 28046 27603
2041.000  29053 29236 26276 27924 27481 30380 27725 28427
##END=
