##TITLE= SPLICCO spectrum (File: \\phypcs\vansoelen.1$\Roaming Profile\My Documents\Senior Lab\Fourier Optics\Activity 2.3\DoubleSlitB2_5_Lens.jdx)
##JCAMP-DX= 4.24
##DATE= 3.3.2016
##TIME= 13:34:7
##DATA TYPE= INFRARED SPECTRUM
##OWNER= Public Domain
##RESOLUTION= 2.0
##DELTAX= 1.00000000
##XUNITS= ARBITRARY UNITS
##YUNITS= ARBITRARY UNITS
##APPLICATION= SPLICCO
$$SHOW_VERTICAL_FLIPPED= 0
$$SHOW_HORIZONTAL_FLIPPED= 0
##XFACTOR= 1.0
##YFACTOR= 0.000001
##FIRSTX= 1.000
##LASTX= 2048.000
##NPOINTS= 2048
##FIRSTY= 0.030426
##XYDATA= (X++(Y..Y))
1.000  30426 31311 33707 31815 29983 31174 30807 31433
9.000  30426 31616 30609 31815 30167 30807 31876 31677
17.000  32120 32257 32257 33951 31433 34134 32944 33569
25.000  32623 33768 33066 33188 35660 31052 30609 30609
33.000  32761 31815 32379 32822 33386 32501 31372 31815
41.000  30731 32379 33005 34271 34393 32318 29983 33005
49.000  32059 33768 32623 31494 33829 33768 33447 34012
57.000  32379 33630 32120 32318 31113 31494 33188 30991
65.000  33569 32684 33005 32379 34637 34393 32883 32944
73.000  33188 31433 29724 32684 34393 34576 32822 34073
81.000  32761 34073 32059 32623 32684 33569 33890 33386
89.000  33264 32623 32761 32501 33066 33264 32379 33768
97.000  31998 33890 33707 33447 31754 33005 31815 33707
105.000  30731 30991 34454 32181 31998 32120 32379 33707
113.000  30548 33325 33768 32944 33005 31876 33829 32318
121.000  33127 33386 32944 33386 34073 32623 34775 34271
129.000  33127 33386 34515 33127 33707 31677 31815 32440
137.000  35660 33386 32562 34576 33508 34576 33508 34714
145.000  33127 32822 33325 34210 34271 31876 32257 34073
153.000  32059 33951 34073 33188 34515 32623 32440 34775
161.000  33325 34134 32379 33630 34897 35217 32761 34332
169.000  34958 33829 32257 34073 33890 33829 32501 31555
177.000  34637 34210 34332 33707 32684 33768 34073 31998
185.000  33066 32440 33707 35278 33508 32501 33569 33630
193.000  32562 33951 34210 34897 32944 35523 35019 33630
201.000  35141 33508 31555 33447 34576 34958 31937 32684
209.000  33386 34515 30167 35278 32379 30930 33188 35782
217.000  30426 36408 34012 33630 35660 36667 33386 35461
225.000  34637 34515 32501 34897 34836 35278 32379 32883
233.000  33829 35217 33325 33890 31433 35843 34454 34714
241.000  33569 34836 37094 31372 35721 34958 34775 35400
249.000  34515 31235 35217 33569 34637 36346 35339 32761
257.000  32944 33768 33890 34576 35461 34576 34637 35523
265.000  35400 34775 34134 35782 32822 32379 34454 33951
273.000  34393 34576 34637 34210 32684 34714 32822 33707
281.000  34454 34073 35523 33829 35400 35904 33066 35584
289.000  33630 33386 34836 35080 34958 36408 33951 34271
297.000  34073 35080 33066 35461 36224 32684 34393 34714
305.000  33951 36789 36911 34393 33630 34775 33768 33768
313.000  34515 33630 37232 34393 33951 34073 33127 35019
321.000  35782 35461 34958 34515 36530 34958 33508 36285
329.000  33447 35660 35400 34012 34393 36026 33127 35965
337.000  35080 35019 34210 34836 35019 33768 34897 35217
345.000  34714 32059 35339 34134 32822 36224 33066 34073
353.000  32059 35782 33630 34393 34271 34454 35843 35782
361.000  34836 35461 35339 36469 34515 33264 35019 36285
369.000  34271 35217 35217 37415 35080 32944 33508 35904
377.000  33890 35721 34958 37033 34637 35461 36408 37232
385.000  33890 33951 33768 34576 35721 35400 34897 33707
393.000  34836 36087 35339 34393 36087 35217 33569 35660
401.000  36667 36285 35339 35782 33447 34210 34576 34271
409.000  35019 34775 32562 35904 36026 35584 33768 35217
417.000  37033 33890 34897 36591 34576 36667 35080 35721
425.000  35523 36408 36408 34515 35965 35080 36469 34836
433.000  34775 36469 34210 37857 35278 35400 36850 36346
441.000  36163 34271 35843 35019 36408 34958 36087 35904
449.000  34393 36285 36408 36530 34073 36850 36285 35141
457.000  35278 34775 33386 35217 35217 36026 37033 35843
465.000  36163 34210 37796 34958 34958 35339 35721 34073
473.000  36911 38925 35843 35278 35461 37293 36469 33630
481.000  35584 35843 35339 36285 36911 34332 36972 36285
489.000  34836 38117 36728 37476 34637 35721 35461 36346
497.000  37293 36346 35141 36850 34897 36026 35019 37293
505.000  35217 33890 34637 35660 37170 35278 36163 35782
513.000  34897 35339 35278 36087 35965 37033 36850 35904
521.000  35843 36346 37674 35400 36346 35660 35721 36728
529.000  38925 35461 34332 34775 35019 37094 35523 32761
537.000  36789 35904 36728 35584 35965 36728 36224 36408
545.000  36346 35400 35965 36728 36026 32761 36224 36850
553.000  34332 34332 35965 36408 36346 35019 36530 34012
561.000  37735 37170 37796 37354 35217 37537 38040 36469
569.000  35461 35660 37232 34897 37537 35843 38742 35904
577.000  34836 35461 34210 35080 35904 34210 35965 35584
585.000  36667 35141 34210 34958 37415 36346 35782 34897
593.000  35904 36285 35965 33569 36163 34210 36850 35965
601.000  35721 37094 35080 35782 36911 36163 35461 36530
609.000  35080 36789 33508 39688 34836 33386 35400 33829
617.000  36530 36285 33768 35660 36163 36789 36530 37170
625.000  34515 35904 36591 33829 36972 36789 34897 35217
633.000  34897 35339 35019 34897 35523 34714 36469 36850
641.000  36789 34958 35843 35584 35141 33890 34897 36285
649.000  36026 36911 36408 37415 34897 34454 36469 34637
657.000  35843 37033 35019 36026 35721 36728 38803 35400
665.000  35217 36469 36346 37170 35843 36469 34332 36850
673.000  35721 36530 35843 35965 34714 38483 35339 36972
681.000  35523 35782 34515 35461 35782 34958 35721 35278
689.000  37354 33890 38239 36087 35965 35904 34775 34637
697.000  36667 37415 35782 37170 37094 36285 35019 34897
705.000  34897 35523 36087 34576 37857 36087 34637 36026
713.000  36346 35843 35584 34637 35965 34714 36408 34897
721.000  37476 36087 36469 33508 38178 36850 36591 35965
729.000  35339 38239 36972 35400 36972 36346 37979 37293
737.000  37918 38483 37735 35965 33768 34714 37796 35400
745.000  32761 36346 37232 36026 35584 35965 37094 37094
753.000  35660 36163 36850 35904 34637 36163 36911 36026
761.000  35400 35843 35019 36408 35019 35461 35660 35782
769.000  37476 38544 34332 36346 37232 38483 35141 35461
777.000  33508 37476 36972 35660 35400 35080 34897 37033
785.000  32944 35782 36346 36469 35782 34897 36667 37476
793.000  37857 35278 35278 36789 34836 37735 36408 37094
801.000  36850 35080 36469 35584 35278 36408 36026 36163
809.000  36087 36346 38040 34637 36591 36789 39368 35339
817.000  37354 35782 34271 36408 35965 36469 35278 35019
825.000  37613 36667 36026 35278 37979 35461 36285 35904
833.000  35843 36972 35904 36346 37033 37979 35339 36469
841.000  35400 35584 36591 36346 36530 35400 36087 35965
849.000  38040 37537 35843 35904 36789 34958 36469 37476
857.000  34775 35721 35843 35660 35782 37415 35721 36026
865.000  35278 36469 34637 36163 36346 36911 36728 34210
873.000  36789 35584 36087 36728 37354 34271 35523 35843
881.000  33630 36789 38040 36408 36224 34576 34637 34714
889.000  35965 35584 35721 35843 33768 36285 35904 34836
897.000  35339 34073 36087 35721 35904 35141 37415 35217
905.000  35080 35523 37354 37537 34714 34515 36789 36285
913.000  37354 34393 36087 35141 32883 33890 36285 35782
921.000  37293 37979 37232 36087 35523 34210 34332 33508
929.000  34210 34454 35461 35523 34958 35523 36591 34897
937.000  35141 36285 35217 35904 34576 34714 35217 35217
945.000  36850 36728 36911 37735 35461 36163 34637 38742
953.000  37415 37094 37033 37232 38178 38925 34958 36346
961.000  35965 37170 34897 34897 36850 34134 36224 35461
969.000  34775 35400 37232 35843 35217 34073 36911 37415
977.000  35080 36728 37476 38239 36972 39124 34714 36285
985.000  39185 36850 35721 38544 38681 37232 38361 40253
993.000  37979 37918 37094 35339 37735 36972 36469 37735
1001.000  36408 38040 37537 34836 35339 34393 34134 36591
1009.000  37094 36850 35461 33630 35584 36087 36789 36163
1017.000  34454 36026 36026 37354 39871 37232 35461 37735
1025.000  36163 35217 34454 37033 37918 38422 35141 36789
1033.000  36026 34454 34775 35400 35400 34958 36163 35843
1041.000  36911 36346 37979 37476 34958 35523 38040 37735
1049.000  35523 39810 37170 37674 37918 36469 36972 34454
1057.000  37476 36163 37415 39124 36408 38361 37033 35461
1065.000  36087 33890 36728 36346 36591 35843 36087 33890
1073.000  34775 38117 36911 35339 38422 34210 35782 36163
1081.000  37415 36285 37033 38986 37354 38986 37857 36026
1089.000  39810 37857 38483 38742 38178 37415 41641 38040
1097.000  40070 39490 36972 38742 38544 39810 38742 35721
1105.000  37415 39307 37094 36408 36026 35843 34714 37918
1113.000  37415 38239 35400 35523 35843 37918 39871 37476
1121.000  39124 38742 40634 42893 43976 44846 44785 47302
1129.000  48889 50141 47623 52719 52216 49332 51590 50766
1137.000  47119 45349 44037 43533 41138 38620 38803 39627
1145.000  36789 34958 35019 37094 32944 36346 36224 38422
1153.000  40436 40939 42771 41824 46051 45670 47119 44983
1161.000  46112 46860 44480 43335 44403 43900 44220 45044
1169.000  44480 42450 45929 40573 42450 43152 41382 43396
1177.000  39810 37918 37293 35965 38422 33707 35217 36591
1185.000  37094 37613 39993 40070 46616 49897 53101 59220
1193.000  61356 67093 72510 79255 76478 78873 81589 84229
1201.000  82017 76981 75089 73701 67597 61921 59662 53482
1209.000  48310 49393 44098 40878 38239 35217 37735 35523
1217.000  35217 35523 37735 36087 36667 38544 40939 41580
1225.000  44342 47882 51285 59342 70939 79697 94178 114595
1233.000  134752 159777 181002 205951 229587 249301 268146 285587
1241.000  296940 311863 311299 305943 302479 279926 252323 215411
1249.000  199786 160723 128587 93430 72449 50583 43595 43396
1257.000  52719 74082 114213 163683 231342 314824 394842 462638
1265.000  545357 622110 710185 761150 806958 851255 869718 899015
1273.000  894911 905561 882185 864423 842938 785732 734447 668543
1281.000  578881 521171 425268 337636 269214 211688 147859 97077
1289.000  65262 50583 46738 52796 67978 87632 114717 141252
1297.000  177599 216922 248737 270664 283131 296681 305378 314641
1305.000  309910 293659 276325 264545 235889 220004 194430 172747
1313.000  149629 127641 107484 89463 75532 67414 58014 47882
1321.000  42450 39688 38178 36667 33630 34576 35080 37918
1329.000  40314 41138 42450 43274 46936 50339 53986 57648
1337.000  59098 63569 66712 69794 74021 76981 75471 72251
1345.000  74082 71686 71320 68162 64576 62363 59662 51911
1353.000  50522 48569 46234 43472 40375 40497 37232 36972
1361.000  37476 38117 35965 41000 37918 39810 38361 38361
1369.000  38681 41824 39566 40192 38620 39871 38178 41519
1377.000  39993 40192 38300 36591 39627 35843 35721 38742
1385.000  38300 35141 36972 37537 33829 32883 34637 34454
1393.000  32501 32318 31494 35278 31311 31876 33707 35217
1401.000  35339 35721 35523 36972 35461 36911 38544 38239
1409.000  37232 38544 37613 38422 38742 36591 36530 34958
1417.000  34454 36469 34637 33325 34073 33630 31311 32257
1425.000  31433 32623 33447 33707 33890 35904 31616 33569
1433.000  32120 33768 33569 32059 32257 32318 32944 33951
1441.000  33188 34073 34454 36591 34012 35584 35965 36026
1449.000  36285 34012 37033 34012 35965 34897 35461 34775
1457.000  33951 34332 32883 34714 32684 33264 34012 31433
1465.000  32181 31372 30930 31876 31433 33264 31113 31235
1473.000  30869 31616 33127 32822 33325 32822 32120 32379
1481.000  33447 32318 32440 33569 34073 32822 34775 34714
1489.000  33188 34073 34210 34775 33005 36285 32944 33707
1497.000  33066 35278 31754 32257 33188 33325 32623 31052
1505.000  32059 33005 31937 31754 34332 32944 31235 30869
1513.000  33066 32181 35660 33707 33264 32761 32501 33005
1521.000  35339 33508 33768 30869 32684 31555 30731 31876
1529.000  29922 31372 32120 32562 31677 31876 32318 29541
1537.000  32318 31311 33127 30228 30487 33386 31876 34775
1545.000  32257 34012 30807 33127 32684 30991 30167 32684
1553.000  31311 33707 32059 31876 31815 31113 32181 30670
1561.000  30228 31372 30106 30807 29861 31311 30991 31616
1569.000  31998 30365 31052 30807 31311 31174 33951 31616
1577.000  28976 30167 30045 31677 29282 27649 32318 31555
1585.000  29663 32318 28274 31677 32623 32883 32120 32883
1593.000  30930 30670 33005 31052 32501 32181 31052 31433
1601.000  30731 31113 30426 31235 29724 30045 30869 31113
1609.000  28595 31433 31174 29037 30426 31815 29419 30228
1617.000  30609 30045 29724 30731 32318 29480 31113 30167
1625.000  28091 30670 29282 29037 29037 29419 30228 31311
1633.000  30045 28915 30487 29541 29221 29861 28152 29861
1641.000  29724 30228 30167 31937 29358 29282 31235 28351
1649.000  28534 28213 26703 30930 29159 28717 28656 29724
1657.000  28030 30365 28152 29480 29922 30167 28717 30167
1665.000  30609 29602 28778 28854 28656 30426 29419 30869
1673.000  30365 30991 30167 29358 28534 29419 27771 30609
1681.000  29480 28274 28915 25314 26825 30106 28473 26260
1689.000  26642 28412 30731 28534 27969 29480 29419 28976
1697.000  28412 29602 26016 28412 26459 28717 29663 29037
1705.000  29663 27023 29037 26764 28595 27710 29037 27405
1713.000  26703 29098 27588 29358 27847 26764 28656 28976
1721.000  29159 27710 28030 28915 27710 26016 29282 29037
1729.000  28351 27588 27206 30731 26825 26825 27847 28351
1737.000  28976 27328 29419 29541 28534 30228 27466 26642
1745.000  28656 28152 28595 28656 27710 28976 27328 28091
1753.000  28412 27267 27267 28717 27466 28351 29159 26642
1761.000  25818 26321 29419 28717 27908 27405 27649 26962
1769.000  26901 27588 25009 26962 26321 28152 29282 28915
1777.000  27328 27206 26901 26901 25757 28778 27145 27328
1785.000  27206 25452 27588 27405 25894 28351 28091 27771
1793.000  27847 26138 28473 26520 25757 26764 25009 26581
1801.000  27145 26398 28595 27466 26199 26901 27969 25894
1809.000  27710 26764 28717 27267 27206 25635 26825 27328
1817.000  28213 26962 26962 26321 26138 25070 26901 26962
1825.000  27145 26642 27145 26398 26077 27588 27466 28274
1833.000  24444 26581 26825 25375 26581 25253 25253 27588
1841.000  25253 27084 25955 28091 26520 24505 26581 26138
1849.000  25635 25635 27267 26398 26703 25452 24185 26138
1857.000  26398 25513 24185 25452 25375 24567 25757 27847
1865.000  26962 23804 24002 26138 26459 26825 25818 26260
1873.000  24628 27084 25070 25513 25955 22613 27405 25452
1881.000  26138 24063 24246 23498 24750 26901 24246 23743
1889.000  27084 27969 27527 24567 24750 25131 26321 25192
1897.000  24185 23941 26703 25818 24185 24368 25574 25375
1905.000  26138 24689 26459 23743 24811 25696 23178 24124
1913.000  24368 24689 25131 25513 23300 25513 24811 24872
1921.000  26642 24948 24811 25314 25009 24505 25253 23865
1929.000  25070 25696 25818 24246 25513 25314 24811 26459
1937.000  24063 25131 24368 24689 25375 24567 25070 25192
1945.000  26077 23361 24246 26764 27847 26398 23300 23239
1953.000  24811 24444 24124 23422 24063 25452 24872 24811
1961.000  25696 25696 23498 24063 24948 24505 24811 25818
1969.000  23743 25894 24628 24872 24002 25375 24002 22674
1977.000  25757 24811 24505 24185 23498 25757 23865 25009
1985.000  24368 24063 25192 23498 21164 25009 21667 23682
1993.000  24689 23743 23422 24185 23804 22415 23559 24368
2001.000  25070 23620 23682 25375 25574 23865 24185 24948
2009.000  23300 22995 22919 22674 22110 25070 24368 24063
2017.000  23239 22796 22110 22858 22919 22354 22049 23178
2025.000  24567 23865 22354 23743 24811 24368 23422 22858
2033.000  24063 23743 23865 24063 23559 22491 23559 23498
2041.000  22049 23865 22735 22613 21789 21469 22995 22232
##END=
