##TITLE= SPLICCO spectrum (File: u:\Roaming Profile\My Documents\Senior Lab\Fourier Optics\DoubleSlitC_FarField.jdx)
##JCAMP-DX= 4.24
##DATE= 1.3.2016
##TIME= 15:43:58
##DATA TYPE= INFRARED SPECTRUM
##OWNER= Public Domain
##RESOLUTION= 2.0
##DELTAX= 1.00000000
##XUNITS= ARBITRARY UNITS
##YUNITS= ARBITRARY UNITS
##APPLICATION= SPLICCO
$$SHOW_VERTICAL_FLIPPED= 0
$$SHOW_HORIZONTAL_FLIPPED= 0
##XFACTOR= 1.0
##YFACTOR= 0.000001
##FIRSTX= 1.000
##LASTX= 2048.000
##NPOINTS= 2048
##FIRSTY= 0.017929
##XYDATA= (X++(Y..Y))
1.000  17929 18936 17929 17547 18753 17807 17425 17929
9.000  18371 19378 17624 17044 16678 17044 16678 18570
17.000  19073 18631 19195 16479 16739 18753 18493 19577
25.000  17807 17685 18432 18051 19378 18249 17868 19882
33.000  18432 20004 17364 17425 18753 19760 18188 19073
41.000  19638 18570 18753 18432 18493 20645 17929 17929
49.000  17364 19073 18875 20447 18631 17929 18310 16800
57.000  18692 17547 19134 17746 17868 18432 19378 17807
65.000  18631 16617 19073 18875 18753 17181 19577 19638
73.000  18570 18631 20080 19317 20584 20584 18997 20141
81.000  20202 20645 20950 18997 18875 18051 19317 18753
89.000  19195 17746 20645 19073 18997 20386 19821 20263
97.000  19760 18188 19577 20706 19821 18692 17929 20447
105.000  17868 18814 18936 17624 19760 20767 17486 20386
113.000  18753 21271 16540 19073 18692 18432 19821 19256
121.000  18936 20645 19501 19699 18875 19577 18127 18493
129.000  18188 20889 18692 19638 18692 21026 19760 19378
137.000  19638 18814 21652 20447 20584 19439 19378 19378
145.000  18493 20004 19760 18997 18936 18493 18371 19943
153.000  18127 20004 18814 19943 19760 19378 19501 20263
161.000  19943 19439 19821 18936 17044 18249 20004 21210
169.000  18051 22095 20386 20386 18631 19638 20386 20386
177.000  21835 20706 21652 21652 19378 20004 19699 20950
185.000  21149 21087 20080 18814 20828 19073 18814 21026
193.000  21087 19577 19577 22659 20645 19501 20080 19317
201.000  20828 20645 19638 21957 20004 20004 20645 20950
209.000  19577 18997 20004 19943 20645 20080 20706 21087
217.000  20645 19195 20523 19439 20828 19943 19317 20950
225.000  19256 17868 20386 20263 19134 20263 20523 20950
233.000  21530 22034 19638 20447 19882 18875 19760 19882
241.000  19882 19195 20386 19943 20004 20080 20950 21149
249.000  21271 20584 19501 22598 19195 20828 22842 21087
257.000  21087 20080 20263 20706 20706 22339 21332 20325
265.000  21454 21026 21026 21530 20325 19943 21026 18432
273.000  20523 21393 22278 22278 21957 19821 20889 21713
281.000  19943 21957 20645 19882 21713 20141 22980 20141
289.000  20004 21210 21835 20141 20767 18997 19195 21835
297.000  22781 22598 20141 19378 22476 19760 21149 23102
305.000  20828 20828 21774 20889 21713 19882 21454 21393
313.000  20325 20584 21652 21454 21896 20447 20141 20202
321.000  21454 19577 20828 22537 21393 20828 22903 19882
329.000  22156 23483 22842 21454 22095 20523 20325 22156
337.000  21713 20386 22095 20004 19821 23849 21896 23407
345.000  20706 22278 21835 24048 22537 23346 20386 21393
353.000  21957 20706 21835 21896 22339 20828 23102 21530
361.000  22156 23987 21652 22400 21835 22781 21896 23041
369.000  22217 21652 22156 23727 22781 21774 22339 21713
377.000  22598 22095 21896 21271 22034 22781 22339 23285
385.000  22339 23544 22217 21713 22842 22217 22537 23163
393.000  23666 22476 21957 20706 21896 21530 21332 20950
401.000  20584 22903 23910 20584 21149 21271 21591 21896
409.000  23788 21087 24353 22156 22217 22217 23041 23041
417.000  23346 22659 22842 22903 21591 21896 22217 21835
425.000  22400 21393 22980 22842 21957 21774 22034 22537
433.000  21896 22400 24933 22842 21774 22095 23407 23041
441.000  22598 21896 21393 21530 21774 21393 21332 23910
449.000  22842 20950 22278 21591 23102 24231 23666 24551
457.000  22034 23224 21713 22598 23987 23910 21713 23987
465.000  23041 23346 21835 25558 22339 23483 21774 22980
473.000  23163 23041 23224 24292 22278 21271 22156 24109
481.000  21774 24933 23407 23727 22156 22903 23041 23407
489.000  22980 22537 23666 23483 22095 22217 21530 23346
497.000  23407 22659 23102 22903 21774 24109 21530 24231
505.000  22156 21774 21835 21530 22278 21454 25055 22339
513.000  23407 23910 25055 23666 22903 22598 22156 23224
521.000  21530 21454 24231 23346 21713 24109 24109 24292
529.000  21652 21530 22842 22720 22598 21652 23987 23727
537.000  23346 22400 24292 26184 22476 22156 24551 24994
545.000  23285 23910 23407 24933 22400 23346 23605 22537
553.000  23788 21530 23102 24353 22980 23224 23041 23346
561.000  24109 23605 23605 24429 21957 24292 22781 24170
569.000  23727 24170 22781 24048 24292 23346 24048 21530
577.000  24109 23666 23544 24795 24429 23605 24231 24109
585.000  23544 24490 24994 24933 24795 26001 24856 25055
593.000  23727 24292 22339 23483 23483 23727 21652 22278
601.000  23407 22339 23910 24170 25177 24490 22537 23788
609.000  23224 23544 25177 23285 24109 21454 22400 22598
617.000  23605 24612 23285 24490 23224 23727 24612 24612
625.000  26123 23041 24734 26001 25803 25680 25238 24612
633.000  21454 24353 23483 23483 25116 24933 23041 24231
641.000  24429 23483 24490 24429 23224 22903 22659 24048
649.000  24429 23788 25436 25360 23910 26382 25558 24292
657.000  22095 24551 23849 23666 23346 23987 24612 26184
665.000  23544 23285 27389 24292 23666 26688 25619 23666
673.000  25436 24612 24109 25238 25558 25619 24734 26184
681.000  26245 24429 22781 23788 25116 25864 24109 27252
689.000  25436 24353 25741 24109 24170 24673 26749 23041
697.000  25238 24673 24673 25803 27069 25680 24933 25360
705.000  26443 24673 24292 24048 25741 22781 25619 25680
713.000  26123 26443 25803 27634 26123 23605 24551 27130
721.000  25803 23727 25741 23987 26947 25619 26382 25116
729.000  27313 25177 26123 26245 26443 26382 25741 25619
737.000  25299 25436 25619 24673 25558 23285 26306 25055
745.000  24048 26886 28900 24429 27573 25680 26688 26306
753.000  25680 27450 25299 24795 24673 28259 27817 27573
761.000  26306 27069 26245 26626 25803 25940 26062 23605
769.000  24170 26565 24856 27130 26688 24994 26504 27313
777.000  25803 24551 25177 26626 25680 26886 26443 25436
785.000  25940 27450 27954 27008 25558 27695 26749 28259
793.000  25299 26001 26688 25177 26626 25055 26886 26947
801.000  26123 26886 26001 29144 25558 26306 28198 26810
809.000  28458 26810 27008 28839 28641 25360 26001 28641
817.000  25055 27817 27069 27069 27130 27756 26626 29205
825.000  27756 28519 24933 27893 29846 29709 28076 25055
833.000  26504 27191 28259 27573 28839 31097 28259 26947
841.000  28580 30090 28458 26382 28015 27008 29526 31418
849.000  28519 25803 27008 28259 29770 27450 27008 26306
857.000  26565 28397 26688 28580 27893 26062 27389 27313
865.000  26443 25940 26123 25803 26886 26001 27756 27389
873.000  29648 29205 26443 24551 25864 24933 27069 25177
881.000  26504 26749 26001 27008 27389 25803 26382 26886
889.000  26810 26184 27313 25055 26688 27389 27191 25436
897.000  27191 27389 26947 27069 28763 29465 29526 28900
905.000  29770 28519 28900 28137 29709 29907 29343 29587
913.000  30090 29770 29343 32104 29709 31982 30533 30853
921.000  32669 33173 31601 31418 31479 32867 34317 33051
929.000  29205 31799 33676 32928 32166 30533 30151 31158
937.000  29587 31418 31921 30289 29587 30716 31601 28259
945.000  29846 30289 32303 30975 29968 29587 30716 28900
953.000  30853 29526 29022 31357 29205 28015 29465 31479
961.000  29343 30975 28641 28702 30212 28458 30029 30411
969.000  28015 30716 31418 28397 28839 28641 29266 28900
977.000  28900 31921 29144 31357 30029 28839 30350 29144
985.000  30655 32166 29266 31296 30792 32608 30655 29266
993.000  30151 27512 30411 29709 30029 28336 27252 32364
1001.000  29709 29526 30533 29709 31219 30472 31036 31036
1009.000  29587 29709 29770 30792 30655 30975 28641 30914
1017.000  30289 30411 31097 30151 31982 30212 28259 32425
1025.000  28015 30151 31158 31097 31296 30792 29022 31479
1033.000  29465 30655 32867 29968 31479 30853 31662 33051
1041.000  30289 32608 31982 32425 35889 36957 34195 35889
1049.000  34760 38223 36774 39536 37964 40619 39475 43961
1057.000  41489 44327 43137 43381 47287 45395 48554 51895
1065.000  50125 50385 46921 50247 49561 48996 48996 49057
1073.000  49118 51132 51194 48676 46540 46784 48233 47486
1081.000  44266 44144 44083 41687 42816 42313 42435 42511
1089.000  43259 42130 42633 43015 43320 46845 47730 51194
1097.000  50827 53208 56183 54413 61539 66071 64118 70603
1105.000  71931 78736 82322 88059 93034 98390 107087 113633
1113.000  119111 121141 131273 138963 145708 144640 152697 157305
1121.000  166430 168642 174746 176897 184390 194659 189745 194476
1129.000  178088 182253 183260 185961 186465 195544 199633 191821
1137.000  182757 176256 172793 164614 160952 169329 160891 159945
1145.000  158312 159441 160952 171343 178652 192141 214511 230640
1153.000  251804 273853 320103 335103 370946 428595 465903 523918
1161.000  596948 640741 694041 760891 816708 876310 923750 970565
1169.000  980453 980773 981033 981460 981658 981780 981841 981979
1177.000  982040 982986 983794 984176 984237 984054 983489 982101
1185.000  980392 979385 976684 972777 969939 965590 961181 956206
1193.000  951155 945113 939070 936858 930052 929045 924757 921675
1201.000  918150 915754 917204 920164 923887 925261 928480 931944
1209.000  934843 942092 944106 946379 954879 960921 963134 967223
1217.000  971129 974471 977248 978377 979949 981338 982726 983611
1225.000  984237 984435 984298 983794 983550 983291 982986 982909
1233.000  982726 982604 982345 982345 982406 982284 982345 982223
1241.000  982284 981979 982162 982162 982101 981841 981719 981033
1249.000  637781 501365 447058 413168 391744 362447 330815 310521
1257.000  294392 274235 247455 231769 232715 217471 203921 192324
1265.000  185397 190066 178530 189501 191699 183703 179858 203982
1273.000  201464 180865 185519 187853 191638 192462 188235 194354
1281.000  187045 191195 198825 197177 188418 193270 177523 171419
1289.000  158617 160067 151750 150621 149797 138780 136629 130968
1297.000  123598 116227 110551 99717 96818 92271 96559 87113
1305.000  81696 73945 68909 65308 60013 59891 55237 56244
1313.000  51834 48996 45654 47989 44525 42572 44647 40054
1321.000  38101 39917 35507 36514 36575 33997 34561 34622
1329.000  34439 35385 34760 35446 35507 36209 34699 32364
1337.000  35202 36011 33615 34439 34119 35629 36148 34622
1345.000  32425 35950 34195 33310 31036 30853 33173 31219
1353.000  32547 32425 32043 33432 33997 32303 32364 31219
1361.000  31357 29968 30792 31601 30029 29968 31036 31219
1369.000  29465 30350 31662 30289 29465 29144 28961 30914
1377.000  32364 32547 30655 30853 29144 30411 31662 32043
1385.000  31921 33249 32166 31662 30853 34058 30212 30289
1393.000  32166 29266 30914 29907 31982 31036 29022 29709
1401.000  31036 32043 31296 29709 28839 27573 28641 30472
1409.000  28839 26947 28198 28900 29465 28900 28961 26443
1417.000  29022 29083 30289 29205 27695 28336 29343 28900
1425.000  31723 31158 27695 28519 29144 29343 30029 29266
1433.000  32104 29404 30655 33997 31860 28641 30914 31921
1441.000  31357 33676 31036 32547 32608 31219 30975 31097
1449.000  31357 31982 30090 31799 30655 31479 35568 33875
1457.000  32608 33432 32303 33173 33752 34058 32364 30914
1465.000  32547 31921 32867 33997 33112 30533 32104 32745
1473.000  33051 33615 31479 31479 30533 32104 32486 32242
1481.000  30090 30151 32547 30655 30289 31158 30090 29205
1489.000  30151 30212 29465 28839 31982 30212 29465 30533
1497.000  30533 29770 30594 29846 27252 29907 30029 31662
1505.000  28702 30029 29907 32990 31723 30533 30350 31723
1513.000  33051 29343 30594 30472 29648 31982 29648 32608
1521.000  31982 32990 30853 32990 30792 32242 33112 30853
1529.000  32745 33371 32425 33371 33051 34119 33997 33249
1537.000  33310 31921 31418 35629 35065 34378 35706 34561
1545.000  36011 34058 35385 36331 35202 34622 33875 33676
1553.000  36575 33875 34317 34760 36331 35065 34699 37399
1561.000  33875 33554 33936 33112 35004 33997 36652 33051
1569.000  33249 32608 33493 33051 30853 29709 30533 30716
1577.000  30716 31860 29846 29709 30029 28900 30472 30533
1585.000  30212 29266 27695 31158 30594 30594 30090 31036
1593.000  29266 30350 30914 28458 29648 30594 32242 31479
1601.000  30655 31479 32364 31860 30594 31219 30655 31799
1609.000  31097 31860 29587 31799 30090 32166 31479 33173
1617.000  31982 31036 33997 32486 31662 32043 29266 31799
1625.000  32745 33676 30792 32104 32486 31219 31219 31158
1633.000  31158 33676 31601 28259 31662 29587 30655 30472
1641.000  30289 31799 32425 30914 27817 31662 31219 30533
1649.000  30853 32303 31479 28763 30975 29083 31097 32104
1657.000  30411 30411 30289 30716 29648 29846 30289 31036
1665.000  29907 29587 28076 31357 28839 29770 29144 29846
1673.000  26749 28580 29648 29526 29022 29404 27954 29770
1681.000  30212 32303 30289 29205 29648 30212 31723 32745
1689.000  31296 30594 30533 31036 29846 29648 29404 29144
1697.000  28259 30716 30411 30853 30411 30350 31036 30090
1705.000  29846 29465 31662 31662 28763 27817 29343 28137
1713.000  29404 29587 26886 28519 30411 30533 31357 29846
1721.000  33051 31357 30716 29266 28519 28198 28702 29709
1729.000  30716 28259 30792 30975 28839 29022 30472 31036
1737.000  29144 29587 28259 28900 30350 29404 30472 28458
1745.000  29266 31601 29465 30090 32364 29846 31036 30716
1753.000  29205 28702 29709 29205 29648 27893 29526 28076
1761.000  31418 28015 29205 29266 28961 29404 29587 28336
1769.000  28397 29846 28961 29465 28458 30533 29907 29968
1777.000  28702 29526 29587 29266 29968 29022 30411 29022
1785.000  30472 27893 28198 29404 27512 28580 30594 30029
1793.000  28336 28397 31723 30151 28961 30350 30350 27389
1801.000  29083 28336 29465 31296 29465 27756 30716 28961
1809.000  29648 30655 30151 28763 29526 31158 27512 28015
1817.000  29343 28259 28900 27512 30472 29465 29205 29770
1825.000  29083 30289 29907 28137 28397 30090 30029 29083
1833.000  28198 31219 29144 28702 28137 28076 27817 28015
1841.000  29526 30350 30914 30029 28397 28702 29404 27893
1849.000  28458 28900 29404 29205 29770 28702 30411 29022
1857.000  27313 29968 28336 29648 28397 30029 31158 28198
1865.000  28839 30212 30289 26688 26886 28641 27954 28137
1873.000  27954 29587 30533 29144 30975 31219 29709 30350
1881.000  29083 27389 26947 28137 28458 30472 29404 30029
1889.000  28076 28702 29144 29404 28839 27069 29770 30655
1897.000  29404 29526 27893 28580 29083 28259 29343 29083
1905.000  29343 28702 29968 30090 29266 28397 29083 30594
1913.000  30975 28763 29846 29846 27954 28580 28259 28839
1921.000  28641 28580 29022 29083 30289 30716 31158 29022
1929.000  29205 29266 30655 30212 28763 29266 29709 28458
1937.000  28961 28519 29083 28076 31418 29465 29404 30975
1945.000  28839 29465 28839 31219 28702 29343 30411 29343
1953.000  28519 29709 27573 30212 30472 29968 28015 27634
1961.000  27450 28397 27634 28839 27573 29083 28458 29465
1969.000  27313 28580 27634 28336 29022 29144 29144 29526
1977.000  28458 27450 28763 28259 27954 28702 27313 30029
1985.000  27008 29266 29343 29587 28580 27634 28900 29144
1993.000  26947 29083 29144 29907 30350 27817 28076 30411
2001.000  28961 28519 30289 30716 27954 28137 30914 26443
2009.000  28839 28763 29587 29526 27008 29968 29083 28900
2017.000  29587 28397 28580 31540 27954 29465 27069 29083
2025.000  28961 29907 30289 28839 29846 28839 27191 28961
2033.000  27817 27954 28900 27389 29709 29022 31158 29968
2041.000  27008 27756 30472 31097 29907 27695 27191 29404
##END=
